Trial	Target_pr	Target_side	Name	Key	RT	Message	Trial_Type	Hemianopia
1	 0	 x	 LineStimuli/stimNo150r0c0v6R-1.7.jpg	 r	 3.880	 GoodTrial	 U	 l
2	 1	 right	 LineStimuli/stimNo13r6c19v6R-1.7.jpg	 l	 1.942	 GoodTrial	 U	 l
3	 1	 left	 LineStimuli/stimNo12r4c9v6L-1.7.jpg	 l	 2.250	 GoodTrial	 U	 l
4	 1	 right	 LineStimuli/stimNo47r15c15v6R-1.7.jpg	 l	 1.931	 GoodTrial	 U	 l
5	 0	 x	 LineStimuli/stimNo151r0c0v6R-1.7.jpg	 r	 2.722	 GoodTrial	 U	 l
6	 0	 x	 LineStimuli/stimNo110r0c0v6L-1.7.jpg	 r	 2.355	 GoodTrial	 U	 l
7	 1	 left	 LineStimuli/stimNo1r5c4v6R-1.7.jpg	 l	 2.225	 GoodTrial	 U	 l
8	 1	 left	 LineStimuli/stimNo5r10c7v6L-1.7.jpg	 l	 1.879	 GoodTrial	 U	 l
9	 0	 x	 LineStimuli/stimNo157r0c0v6L-1.7.jpg	 r	 2.326	 GoodTrial	 U	 l
10	 1	 left	 LineStimuli/stimNo39r10c3v6L-1.7.jpg	 l	 1.639	 GoodTrial	 U	 l
11	 0	 x	 LineStimuli/stimNo86r0c0v6R-1.7.jpg	 r	 2.121	 GoodTrial	 U	 l
12	 0	 x	 LineStimuli/stimNo99r0c0v6R-1.7.jpg	 r	 2.719	 GoodTrial	 U	 l
13	 0	 x	 LineStimuli/stimNo130r0c0v6L-1.7.jpg	 r	 2.631	 GoodTrial	 U	 l
14	 1	 right	 LineStimuli/stimNo57r9c13v6R-1.7.jpg	 l	 2.057	 GoodTrial	 U	 l
15	 1	 right	 LineStimuli/stimNo50r7c16v6L-1.7.jpg	 r	 2.984	 GoodTrial	 U	 l
16	 0	 x	 LineStimuli/stimNo94r0c0v6R-1.7.jpg	 r	 2.678	 GoodTrial	 U	 l
17	 1	 left	 LineStimuli/stimNo62r16c9v6L-1.7.jpg	 l	 1.758	 GoodTrial	 U	 l
18	 0	 x	 LineStimuli/stimNo121r0c0v6R-1.7.jpg	 r	 1.859	 GoodTrial	 U	 l
19	 1	 right	 LineStimuli/stimNo35r6c13v6L-1.7.jpg	 l	 2.178	 GoodTrial	 U	 l
20	 1	 right	 LineStimuli/stimNo28r12c18v6L-1.7.jpg	 l	 1.931	 GoodTrial	 U	 l
21	 0	 x	 LineStimuli/stimNo103r0c0v6L-1.7.jpg	 r	 2.484	 GoodTrial	 U	 l
22	 1	 left	 LineStimuli/stimNo68r2c6v6R-1.7.jpg	 l	 2.384	 GoodTrial	 U	 l
23	 0	 x	 LineStimuli/stimNo135r0c0v6L-1.7.jpg	 r	 2.785	 GoodTrial	 U	 l
24	 1	 right	 LineStimuli/stimNo63r3c20v6R-1.7.jpg	 l	 1.639	 GoodTrial	 U	 l
25	 0	 x	 LineStimuli/stimNo148r0c0v6L-1.7.jpg	 r	 2.550	 GoodTrial	 U	 l
26	 0	 x	 LineStimuli/stimNo124r0c0v6L-1.7.jpg	 r	 2.237	 GoodTrial	 U	 l
27	 1	 left	 LineStimuli/stimNo36r1c4v6L-1.7.jpg	 l	 1.561	 GoodTrial	 U	 l
28	 0	 x	 LineStimuli/stimNo131r0c0v6L-1.7.jpg	 r	 1.842	 GoodTrial	 U	 l
29	 1	 left	 LineStimuli/stimNo25r4c2v6L-1.7.jpg	 l	 1.578	 GoodTrial	 U	 l
30	 0	 x	 LineStimuli/stimNo109r0c0v6L-1.7.jpg	 r	 1.707	 GoodTrial	 U	 l
31	 1	 left	 LineStimuli/stimNo22r16c6v6R-1.7.jpg	 r	 2.255	 GoodTrial	 U	 l
32	 1	 right	 LineStimuli/stimNo80r10c20v6R-1.7.jpg	 l	 1.608	 GoodTrial	 U	 l
33	 0	 x	 LineStimuli/stimNo116r0c0v6R-1.7.jpg	 r	 2.153	 GoodTrial	 U	 l
34	 0	 x	 LineStimuli/stimNo114r0c0v6L-1.7.jpg	 r	 2.810	 GoodTrial	 U	 l
35	 1	 left	 LineStimuli/stimNo7r6c3v6R-1.7.jpg	 r	 2.061	 GoodTrial	 U	 l
36	 0	 x	 LineStimuli/stimNo96r0c0v6L-1.7.jpg	 r	 2.821	 GoodTrial	 U	 l
37	 1	 left	 LineStimuli/stimNo20r14c8v6L-1.7.jpg	 l	 1.632	 GoodTrial	 U	 l
38	 1	 left	 LineStimuli/stimNo72r12c6v6R-1.7.jpg	 l	 3.118	 GoodTrial	 U	 l
39	 0	 x	 LineStimuli/stimNo106r0c0v6L-1.7.jpg	 r	 2.337	 GoodTrial	 U	 l
40	 0	 x	 LineStimuli/stimNo111r0c0v6R-1.7.jpg	 r	 2.502	 GoodTrial	 U	 l
41	 1	 right	 LineStimuli/stimNo52r4c21v6L-1.7.jpg	 l	 1.932	 GoodTrial	 U	 l
42	 1	 right	 LineStimuli/stimNo15r6c15v6L-1.7.jpg	 r	 3.149	 GoodTrial	 U	 l
43	 0	 x	 LineStimuli/stimNo137r0c0v6L-1.7.jpg	 r	 3.102	 GoodTrial	 U	 l
44	 1	 right	 LineStimuli/stimNo19r1c17v6L-1.7.jpg	 l	 2.115	 GoodTrial	 U	 l
45	 0	 x	 LineStimuli/stimNo142r0c0v6L-1.7.jpg	 x	 2.509	 GoodTrial	 U	 l
46	 1	 left	 LineStimuli/stimNo44r15c4v6L-1.7.jpg	 l	 1.561	 GoodTrial	 U	 l
47	 1	 left	 LineStimuli/stimNo49r12c5v6R-1.7.jpg	 r	 1.925	 GoodTrial	 U	 l
48	 1	 right	 LineStimuli/stimNo48r15c22v6L-1.7.jpg	 l	 2.555	 GoodTrial	 U	 l
49	 1	 left	 LineStimuli/stimNo41r14c3v6R-1.7.jpg	 l	 1.990	 GoodTrial	 U	 l
50	 1	 right	 LineStimuli/stimNo74r13c16v6R-1.7.jpg	 l	 1.609	 GoodTrial	 U	 l
51	 1	 right	 LineStimuli/stimNo53r6c14v6L-1.7.jpg	 l	 2.031	 GoodTrial	 U	 l
52	 0	 x	 LineStimuli/stimNo153r0c0v6L-1.7.jpg	 r	 3.084	 GoodTrial	 U	 l
53	 0	 x	 LineStimuli/stimNo156r0c0v6R-1.7.jpg	 r	 3.326	 GoodTrial	 U	 l
54	 0	 x	 LineStimuli/stimNo91r0c0v6R-1.7.jpg	 r	 3.318	 GoodTrial	 U	 l
55	 0	 x	 LineStimuli/stimNo95r0c0v6L-1.7.jpg	 r	 3.066	 GoodTrial	 U	 l
56	 1	 left	 LineStimuli/stimNo61r10c4v6L-1.7.jpg	 l	 1.596	 GoodTrial	 U	 l
57	 0	 x	 LineStimuli/stimNo92r0c0v6R-1.7.jpg	 r	 2.767	 GoodTrial	 U	 l
58	 0	 x	 LineStimuli/stimNo145r0c0v6R-1.7.jpg	 r	 3.365	 GoodTrial	 U	 l
59	 0	 x	 LineStimuli/stimNo93r0c0v6R-1.7.jpg	 r	 2.772	 GoodTrial	 U	 l
60	 1	 left	 LineStimuli/stimNo75r11c3v6R-1.7.jpg	 r	 1.935	 GoodTrial	 U	 l
61	 0	 x	 LineStimuli/stimNo102r0c0v6L-1.7.jpg	 r	 3.285	 GoodTrial	 U	 l
62	 1	 left	 LineStimuli/stimNo46r11c4v6L-1.7.jpg	 l	 1.559	 GoodTrial	 U	 l
63	 1	 right	 LineStimuli/stimNo31r9c15v6L-1.7.jpg	 l	 1.979	 GoodTrial	 U	 l
64	 1	 right	 LineStimuli/stimNo55r15c22v6R-1.7.jpg	 l	 1.620	 GoodTrial	 U	 l
65	 1	 right	 LineStimuli/stimNo9r6c18v6L-1.7.jpg	 l	 1.731	 GoodTrial	 U	 l
66	 1	 left	 LineStimuli/stimNo2r12c8v6L-1.7.jpg	 l	 1.513	 GoodTrial	 U	 l
67	 1	 right	 LineStimuli/stimNo69r3c21v6R-1.7.jpg	 l	 1.496	 GoodTrial	 U	 l
68	 0	 x	 LineStimuli/stimNo100r0c0v6R-1.7.jpg	 r	 2.066	 GoodTrial	 U	 l
69	 0	 x	 LineStimuli/stimNo134r0c0v6L-1.7.jpg	 r	 2.303	 GoodTrial	 U	 l
70	 1	 right	 LineStimuli/stimNo78r14c22v6L-1.7.jpg	 l	 2.049	 GoodTrial	 U	 l
71	 1	 left	 LineStimuli/stimNo23r14c8v6L-1.7.jpg	 l	 1.508	 GoodTrial	 U	 l
72	 0	 x	 LineStimuli/stimNo138r0c0v6L-1.7.jpg	 r	 2.278	 GoodTrial	 U	 l
73	 0	 x	 LineStimuli/stimNo149r0c0v6R-1.7.jpg	 r	 2.726	 GoodTrial	 U	 l
74	 1	 left	 LineStimuli/stimNo29r6c7v6R-1.7.jpg	 l	 2.518	 GoodTrial	 U	 l
75	 0	 x	 LineStimuli/stimNo108r0c0v6L-1.7.jpg	 r	 2.501	 GoodTrial	 U	 l
76	 0	 x	 LineStimuli/stimNo141r0c0v6L-1.7.jpg	 r	 2.596	 GoodTrial	 U	 l
77	 1	 right	 LineStimuli/stimNo56r1c15v6L-1.7.jpg	 r	 2.420	 GoodTrial	 U	 l
78	 0	 x	 LineStimuli/stimNo139r0c0v6L-1.7.jpg	 r	 2.689	 GoodTrial	 U	 l
79	 0	 x	 LineStimuli/stimNo90r0c0v6R-1.7.jpg	 r	 4.789	 GoodTrial	 U	 l
80	 1	 left	 LineStimuli/stimNo11r16c8v6L-1.7.jpg	 l	 1.635	 GoodTrial	 U	 l
81	 0	 x	 LineStimuli/stimNo113r0c0v6R-1.7.jpg	 r	 3.177	 GoodTrial	 U	 l
82	 1	 right	 LineStimuli/stimNo14r10c17v6R-1.7.jpg	 l	 1.580	 GoodTrial	 U	 l
83	 1	 right	 LineStimuli/stimNo24r14c17v6L-1.7.jpg	 l	 2.702	 GoodTrial	 U	 l
84	 0	 x	 LineStimuli/stimNo88r0c0v6R-1.7.jpg	 r	 3.926	 GoodTrial	 U	 l
85	 1	 right	 LineStimuli/stimNo54r12c21v6L-1.7.jpg	 l	 2.267	 GoodTrial	 U	 l
86	 1	 left	 LineStimuli/stimNo59r9c8v6R-1.7.jpg	 l	 2.648	 GoodTrial	 U	 l
87	 1	 left	 LineStimuli/stimNo32r7c5v6L-1.7.jpg	 l	 1.483	 GoodTrial	 U	 l
88	 1	 right	 LineStimuli/stimNo33r3c15v6R-1.7.jpg	 l	 1.555	 GoodTrial	 U	 l
89	 0	 x	 LineStimuli/stimNo132r0c0v6R-1.7.jpg	 r	 3.589	 GoodTrial	 U	 l
90	 0	 x	 LineStimuli/stimNo85r0c0v6R-1.7.jpg	 r	 2.766	 GoodTrial	 U	 l
91	 0	 x	 LineStimuli/stimNo115r0c0v6R-1.7.jpg	 r	 3.131	 GoodTrial	 U	 l
92	 0	 x	 LineStimuli/stimNo154r0c0v6R-1.7.jpg	 r	 2.960	 GoodTrial	 U	 l
93	 1	 right	 LineStimuli/stimNo34r16c22v6R-1.7.jpg	 r	 2.590	 GoodTrial	 U	 l
94	 1	 left	 LineStimuli/stimNo73r2c2v6R-1.7.jpg	 x	 1.738	 GoodTrial	 U	 l
95	 1	 left	 LineStimuli/stimNo26r14c5v6R-1.7.jpg	 l	 1.684	 GoodTrial	 U	 l
96	 0	 x	 LineStimuli/stimNo101r0c0v6L-1.7.jpg	 r	 2.761	 GoodTrial	 U	 l
97	 0	 x	 LineStimuli/stimNo155r0c0v6L-1.7.jpg	 r	 3.049	 GoodTrial	 U	 l
98	 0	 x	 LineStimuli/stimNo147r0c0v6R-1.7.jpg	 x	 0.818	 EARLY_RESPONSE	 U	 l
99	 0	 x	 LineStimuli/stimNo128r0c0v6R-1.7.jpg	 r	 2.173	 GoodTrial	 U	 l
100	 1	 left	 LineStimuli/stimNo3r8c6v6R-1.7.jpg	 l	 2.090	 GoodTrial	 U	 l
101	 1	 left	 LineStimuli/stimNo60r15c9v6R-1.7.jpg	 l	 3.447	 GoodTrial	 U	 l
102	 1	 right	 LineStimuli/stimNo76r1c16v6L-1.7.jpg	 l	 1.755	 GoodTrial	 U	 l
103	 1	 left	 LineStimuli/stimNo64r3c3v6R-1.7.jpg	 l	 2.134	 GoodTrial	 U	 l
104	 1	 right	 LineStimuli/stimNo42r11c21v6L-1.7.jpg	 l	 3.219	 GoodTrial	 U	 l
105	 0	 x	 LineStimuli/stimNo120r0c0v6R-1.7.jpg	 r	 3.549	 GoodTrial	 U	 l
106	 0	 x	 LineStimuli/stimNo89r0c0v6L-1.7.jpg	 l	 3.913	 GoodTrial	 U	 l
107	 0	 x	 LineStimuli/stimNo117r0c0v6L-1.7.jpg	 r	 3.389	 GoodTrial	 U	 l
108	 0	 x	 LineStimuli/stimNo105r0c0v6L-1.7.jpg	 r	 2.240	 GoodTrial	 U	 l
109	 0	 x	 LineStimuli/stimNo158r0c0v6R-1.7.jpg	 r	 2.825	 GoodTrial	 U	 l
110	 0	 x	 LineStimuli/stimNo118r0c0v6L-1.7.jpg	 r	 3.548	 GoodTrial	 U	 l
111	 0	 x	 LineStimuli/stimNo127r0c0v6R-1.7.jpg	 r	 2.877	 GoodTrial	 U	 l
112	 0	 x	 LineStimuli/stimNo84r0c0v6L-1.7.jpg	 r	 2.090	 GoodTrial	 U	 l
113	 1	 right	 LineStimuli/stimNo38r15c16v6L-1.7.jpg	 l	 2.830	 GoodTrial	 U	 l
114	 0	 x	 LineStimuli/stimNo82r0c0v6L-1.7.jpg	 r	 2.472	 GoodTrial	 U	 l
115	 1	 left	 LineStimuli/stimNo79r12c5v6L-1.7.jpg	 l	 1.624	 GoodTrial	 U	 l
116	 1	 right	 LineStimuli/stimNo30r6c18v6R-1.7.jpg	 l	 1.530	 GoodTrial	 U	 l
117	 0	 x	 LineStimuli/stimNo125r0c0v6L-1.7.jpg	 r	 2.030	 GoodTrial	 U	 l
118	 0	 x	 LineStimuli/stimNo98r0c0v6R-1.7.jpg	 l	 3.178	 GoodTrial	 U	 l
119	 1	 right	 LineStimuli/stimNo4r9c19v6R-1.7.jpg	 l	 1.598	 GoodTrial	 U	 l
120	 1	 right	 LineStimuli/stimNo18r4c14v6R-1.7.jpg	 l	 1.631	 GoodTrial	 U	 l
121	 1	 left	 LineStimuli/stimNo37r4c6v6L-1.7.jpg	 l	 1.584	 GoodTrial	 U	 l
122	 0	 x	 LineStimuli/stimNo122r0c0v6L-1.7.jpg	 r	 2.300	 GoodTrial	 U	 l
123	 1	 right	 LineStimuli/stimNo66r14c16v6L-1.7.jpg	 l	 2.513	 GoodTrial	 U	 l
124	 1	 left	 LineStimuli/stimNo45r16c5v6L-1.7.jpg	 l	 1.627	 GoodTrial	 U	 l
125	 0	 x	 LineStimuli/stimNo119r0c0v6R-1.7.jpg	 r	 2.131	 GoodTrial	 U	 l
126	 1	 right	 LineStimuli/stimNo43r11c16v6R-1.7.jpg	 l	 1.561	 GoodTrial	 U	 l
127	 0	 x	 LineStimuli/stimNo152r0c0v6R-1.7.jpg	 r	 3.701	 GoodTrial	 U	 l
128	 0	 x	 LineStimuli/stimNo146r0c0v6R-1.7.jpg	 r	 2.990	 GoodTrial	 U	 l
129	 0	 x	 LineStimuli/stimNo144r0c0v6R-1.7.jpg	 r	 2.490	 GoodTrial	 U	 l
130	 1	 right	 LineStimuli/stimNo77r8c13v6L-1.7.jpg	 l	 2.062	 GoodTrial	 U	 l
131	 0	 x	 LineStimuli/stimNo140r0c0v6R-1.7.jpg	 r	 2.689	 GoodTrial	 U	 l
132	 1	 left	 LineStimuli/stimNo16r16c7v6R-1.7.jpg	 l	 1.866	 GoodTrial	 U	 l
133	 0	 x	 LineStimuli/stimNo123r0c0v6L-1.7.jpg	 r	 2.883	 GoodTrial	 U	 l
134	 0	 x	 LineStimuli/stimNo104r0c0v6R-1.7.jpg	 r	 2.443	 GoodTrial	 U	 l
135	 0	 x	 LineStimuli/stimNo159r0c0v6R-1.7.jpg	 r	 2.672	 GoodTrial	 U	 l
136	 0	 x	 LineStimuli/stimNo112r0c0v6R-1.7.jpg	 r	 2.052	 GoodTrial	 U	 l
137	 0	 x	 LineStimuli/stimNo136r0c0v6R-1.7.jpg	 r	 3.166	 GoodTrial	 U	 l
138	 1	 right	 LineStimuli/stimNo70r6c16v6R-1.7.jpg	 l	 1.543	 GoodTrial	 U	 l
139	 1	 left	 LineStimuli/stimNo17r11c1v6L-1.7.jpg	 l	 1.625	 GoodTrial	 U	 l
140	 0	 x	 LineStimuli/stimNo129r0c0v6R-1.7.jpg	 r	 2.792	 GoodTrial	 U	 l
141	 1	 left	 LineStimuli/stimNo65r16c7v6L-1.7.jpg	 l	 1.549	 GoodTrial	 U	 l
142	 0	 x	 LineStimuli/stimNo143r0c0v6L-1.7.jpg	 r	 3.301	 GoodTrial	 U	 l
143	 0	 x	 LineStimuli/stimNo107r0c0v6R-1.7.jpg	 r	 2.040	 GoodTrial	 U	 l
144	 1	 right	 LineStimuli/stimNo40r12c19v6R-1.7.jpg	 l	 1.554	 GoodTrial	 U	 l
145	 1	 right	 LineStimuli/stimNo10r14c18v6L-1.7.jpg	 l	 2.155	 GoodTrial	 U	 l
146	 0	 x	 LineStimuli/stimNo87r0c0v6R-1.7.jpg	 r	 1.879	 GoodTrial	 U	 l
147	 0	 x	 LineStimuli/stimNo133r0c0v6R-1.7.jpg	 r	 2.252	 GoodTrial	 U	 l
148	 1	 left	 LineStimuli/stimNo71r9c7v6R-1.7.jpg	 l	 1.995	 GoodTrial	 U	 l
149	 1	 left	 LineStimuli/stimNo27r8c4v6L-1.7.jpg	 l	 1.503	 GoodTrial	 U	 l
150	 1	 right	 LineStimuli/stimNo58r11c14v6R-1.7.jpg	 l	 1.511	 GoodTrial	 U	 l
151	 1	 right	 LineStimuli/stimNo51r8c16v6R-1.7.jpg	 l	 1.420	 GoodTrial	 U	 l
152	 0	 x	 LineStimuli/stimNo126r0c0v6R-1.7.jpg	 r	 2.095	 GoodTrial	 U	 l
153	 1	 left	 LineStimuli/stimNo6r2c8v6R-1.7.jpg	 r	 1.774	 GoodTrial	 U	 l
154	 0	 x	 LineStimuli/stimNo81r0c0v6R-1.7.jpg	 r	 3.091	 GoodTrial	 U	 l
155	 0	 x	 LineStimuli/stimNo97r0c0v6L-1.7.jpg	 r	 2.761	 GoodTrial	 U	 l
156	 1	 left	 LineStimuli/stimNo67r4c8v6R-1.7.jpg	 l	 2.443	 GoodTrial	 U	 l
157	 1	 left	 LineStimuli/stimNo21r4c2v6R-1.7.jpg	 l	 1.991	 GoodTrial	 U	 l
158	 0	 x	 LineStimuli/stimNo160r0c0v6L-1.7.jpg	 r	 3.843	 GoodTrial	 U	 l
159	 0	 x	 LineStimuli/stimNo83r0c0v6L-1.7.jpg	 r	 3.695	 GoodTrial	 U	 l
160	 1	 right	 LineStimuli/stimNo8r2c20v6L-1.7.jpg	 l	 2.113	 GoodTrial	 U	 l
