Trial	Target_pr	Target_side	Name	Key	RT	Message	Trial_Type	Hemianopia
1	 0	 x	 LineStimuli/stimNo107r0c0v6R-1.7.jpg	 r	 4.229	 GoodTrial	 U	 l
2	 1	 left	 LineStimuli/stimNo12r4c9v6L-1.7.jpg	 l	 2.389	 GoodTrial	 U	 l
3	 0	 x	 LineStimuli/stimNo130r0c0v6L-1.7.jpg	 r	 3.728	 GoodTrial	 U	 l
4	 1	 left	 LineStimuli/stimNo68r2c6v6R-1.7.jpg	 r	 4.027	 GoodTrial	 U	 l
5	 1	 left	 LineStimuli/stimNo49r12c5v6R-1.7.jpg	 r	 4.958	 GoodTrial	 U	 l
6	 1	 left	 LineStimuli/stimNo3r8c6v6R-1.7.jpg	 l	 5.414	 GoodTrial	 U	 l
7	 1	 left	 LineStimuli/stimNo67r4c8v6R-1.7.jpg	 r	 5.733	 GoodTrial	 U	 l
8	 1	 right	 LineStimuli/stimNo76r1c16v6L-1.7.jpg	 l	 6.739	 GoodTrial	 U	 l
9	 0	 x	 LineStimuli/stimNo94r0c0v6R-1.7.jpg	 r	 7.306	 GoodTrial	 U	 l
10	 1	 left	 LineStimuli/stimNo45r16c5v6L-1.7.jpg	 l	 1.865	 GoodTrial	 U	 l
11	 0	 x	 LineStimuli/stimNo82r0c0v6L-1.7.jpg	 r	 6.285	 GoodTrial	 U	 l
12	 1	 left	 LineStimuli/stimNo11r16c8v6L-1.7.jpg	 l	 1.719	 GoodTrial	 U	 l
13	 0	 x	 LineStimuli/stimNo145r0c0v6R-1.7.jpg	 r	 7.923	 GoodTrial	 U	 l
14	 0	 x	 LineStimuli/stimNo140r0c0v6R-1.7.jpg	 r	 6.466	 GoodTrial	 U	 l
15	 0	 x	 LineStimuli/stimNo106r0c0v6L-1.7.jpg	 r	 6.423	 GoodTrial	 U	 l
16	 0	 x	 LineStimuli/stimNo147r0c0v6R-1.7.jpg	 r	 5.906	 GoodTrial	 U	 l
17	 1	 left	 LineStimuli/stimNo46r11c4v6L-1.7.jpg	 l	 1.820	 GoodTrial	 U	 l
18	 1	 right	 LineStimuli/stimNo63r3c20v6R-1.7.jpg	 l	 1.729	 GoodTrial	 U	 l
19	 1	 right	 LineStimuli/stimNo28r12c18v6L-1.7.jpg	 l	 4.717	 GoodTrial	 U	 l
20	 1	 right	 LineStimuli/stimNo33r3c15v6R-1.7.jpg	 l	 1.719	 GoodTrial	 U	 l
21	 1	 right	 LineStimuli/stimNo56r1c15v6L-1.7.jpg	 r	 3.873	 GoodTrial	 U	 l
22	 1	 right	 LineStimuli/stimNo42r11c21v6L-1.7.jpg	 r	 5.315	 GoodTrial	 U	 l
23	 0	 x	 LineStimuli/stimNo127r0c0v6R-1.7.jpg	 r	 6.954	 GoodTrial	 U	 l
24	 0	 x	 LineStimuli/stimNo84r0c0v6L-1.7.jpg	 r	 7.204	 GoodTrial	 U	 l
25	 0	 x	 LineStimuli/stimNo123r0c0v6L-1.7.jpg	 r	 6.765	 GoodTrial	 U	 l
26	 1	 left	 LineStimuli/stimNo32r7c5v6L-1.7.jpg	 l	 1.685	 GoodTrial	 U	 l
27	 0	 x	 LineStimuli/stimNo112r0c0v6R-1.7.jpg	 r	 7.095	 GoodTrial	 U	 l
28	 1	 left	 LineStimuli/stimNo1r5c4v6R-1.7.jpg	 r	 6.386	 GoodTrial	 U	 l
29	 1	 right	 LineStimuli/stimNo14r10c17v6R-1.7.jpg	 l	 1.896	 GoodTrial	 U	 l
30	 0	 x	 LineStimuli/stimNo141r0c0v6L-1.7.jpg	 r	 8.613	 GoodTrial	 U	 l
31	 1	 left	 LineStimuli/stimNo36r1c4v6L-1.7.jpg	 l	 1.861	 GoodTrial	 U	 l
32	 1	 left	 LineStimuli/stimNo7r6c3v6R-1.7.jpg	 r	 6.435	 GoodTrial	 U	 l
33	 0	 x	 LineStimuli/stimNo90r0c0v6R-1.7.jpg	 r	 7.245	 GoodTrial	 U	 l
34	 0	 x	 LineStimuli/stimNo125r0c0v6L-1.7.jpg	 r	 7.494	 GoodTrial	 U	 l
35	 1	 right	 LineStimuli/stimNo13r6c19v6R-1.7.jpg	 l	 1.779	 GoodTrial	 U	 l
36	 1	 left	 LineStimuli/stimNo61r10c4v6L-1.7.jpg	 l	 1.660	 GoodTrial	 U	 l
37	 0	 x	 LineStimuli/stimNo121r0c0v6R-1.7.jpg	 r	 5.796	 GoodTrial	 U	 l
38	 0	 x	 LineStimuli/stimNo100r0c0v6R-1.7.jpg	 r	 4.771	 GoodTrial	 U	 l
39	 0	 x	 LineStimuli/stimNo132r0c0v6R-1.7.jpg	 r	 6.715	 GoodTrial	 U	 l
40	 1	 right	 LineStimuli/stimNo19r1c17v6L-1.7.jpg	 r	 5.722	 GoodTrial	 U	 l
41	 1	 left	 LineStimuli/stimNo37r4c6v6L-1.7.jpg	 l	 1.659	 GoodTrial	 U	 l
42	 1	 left	 LineStimuli/stimNo60r15c9v6R-1.7.jpg	 r	 6.416	 GoodTrial	 U	 l
43	 1	 right	 LineStimuli/stimNo9r6c18v6L-1.7.jpg	 r	 8.303	 GoodTrial	 U	 l
44	 0	 x	 LineStimuli/stimNo115r0c0v6R-1.7.jpg	 r	 6.905	 GoodTrial	 U	 l
45	 1	 left	 LineStimuli/stimNo22r16c6v6R-1.7.jpg	 r	 7.485	 GoodTrial	 U	 l
46	 1	 left	 LineStimuli/stimNo21r4c2v6R-1.7.jpg	 l	 10.651	 GoodTrial	 U	 l
47	 1	 right	 LineStimuli/stimNo54r12c21v6L-1.7.jpg	 r	 10.332	 GoodTrial	 U	 l
48	 1	 right	 LineStimuli/stimNo51r8c16v6R-1.7.jpg	 l	 1.759	 GoodTrial	 U	 l
49	 1	 left	 LineStimuli/stimNo65r16c7v6L-1.7.jpg	 l	 1.720	 GoodTrial	 U	 l
50	 0	 x	 LineStimuli/stimNo122r0c0v6L-1.7.jpg	 r	 8.588	 GoodTrial	 U	 l
51	 1	 right	 LineStimuli/stimNo8r2c20v6L-1.7.jpg	 l	 6.685	 GoodTrial	 U	 l
52	 1	 left	 LineStimuli/stimNo64r3c3v6R-1.7.jpg	 l	 2.329	 GoodTrial	 U	 l
53	 0	 x	 LineStimuli/stimNo152r0c0v6R-1.7.jpg	 r	 7.205	 GoodTrial	 U	 l
54	 0	 x	 LineStimuli/stimNo143r0c0v6L-1.7.jpg	 r	 7.495	 GoodTrial	 U	 l
55	 1	 left	 LineStimuli/stimNo39r10c3v6L-1.7.jpg	 l	 1.673	 GoodTrial	 U	 l
56	 1	 right	 LineStimuli/stimNo48r15c22v6L-1.7.jpg	 r	 7.087	 GoodTrial	 U	 l
57	 1	 right	 LineStimuli/stimNo30r6c18v6R-1.7.jpg	 l	 1.789	 GoodTrial	 U	 l
58	 1	 right	 LineStimuli/stimNo10r14c18v6L-1.7.jpg	 r	 9.161	 GoodTrial	 U	 l
59	 1	 right	 LineStimuli/stimNo74r13c16v6R-1.7.jpg	 l	 1.760	 GoodTrial	 U	 l
60	 1	 left	 LineStimuli/stimNo20r14c8v6L-1.7.jpg	 l	 1.617	 GoodTrial	 U	 l
61	 0	 x	 LineStimuli/stimNo148r0c0v6L-1.7.jpg	 r	 8.840	 GoodTrial	 U	 l
62	 0	 x	 LineStimuli/stimNo87r0c0v6R-1.7.jpg	 r	 8.206	 GoodTrial	 U	 l
63	 0	 x	 LineStimuli/stimNo93r0c0v6R-1.7.jpg	 r	 8.872	 GoodTrial	 U	 l
64	 0	 x	 LineStimuli/stimNo156r0c0v6R-1.7.jpg	 r	 4.257	 GoodTrial	 U	 l
65	 1	 right	 LineStimuli/stimNo50r7c16v6L-1.7.jpg	 l	 3.356	 GoodTrial	 U	 l
66	 0	 x	 LineStimuli/stimNo150r0c0v6R-1.7.jpg	 r	 7.340	 GoodTrial	 U	 l
67	 0	 x	 LineStimuli/stimNo114r0c0v6L-1.7.jpg	 r	 4.677	 GoodTrial	 U	 l
68	 0	 x	 LineStimuli/stimNo104r0c0v6R-1.7.jpg	 r	 5.975	 GoodTrial	 U	 l
69	 0	 x	 LineStimuli/stimNo138r0c0v6L-1.7.jpg	 r	 7.683	 GoodTrial	 U	 l
70	 0	 x	 LineStimuli/stimNo88r0c0v6R-1.7.jpg	 r	 6.815	 GoodTrial	 U	 l
71	 1	 right	 LineStimuli/stimNo35r6c13v6L-1.7.jpg	 r	 8.032	 GoodTrial	 U	 l
72	 1	 left	 LineStimuli/stimNo27r8c4v6L-1.7.jpg	 l	 1.678	 GoodTrial	 U	 l
73	 0	 x	 LineStimuli/stimNo154r0c0v6R-1.7.jpg	 l	 5.189	 GoodTrial	 U	 l
74	 0	 x	 LineStimuli/stimNo153r0c0v6L-1.7.jpg	 r	 6.385	 GoodTrial	 U	 l
75	 0	 x	 LineStimuli/stimNo96r0c0v6L-1.7.jpg	 r	 7.324	 GoodTrial	 U	 l
76	 1	 right	 LineStimuli/stimNo53r6c14v6L-1.7.jpg	 r	 6.214	 GoodTrial	 U	 l
77	 1	 right	 LineStimuli/stimNo77r8c13v6L-1.7.jpg	 l	 1.959	 GoodTrial	 U	 l
78	 0	 x	 LineStimuli/stimNo139r0c0v6L-1.7.jpg	 r	 5.926	 GoodTrial	 U	 l
79	 0	 x	 LineStimuli/stimNo89r0c0v6L-1.7.jpg	 r	 4.447	 GoodTrial	 U	 l
80	 0	 x	 LineStimuli/stimNo158r0c0v6R-1.7.jpg	 r	 7.693	 GoodTrial	 U	 l
81	 1	 right	 LineStimuli/stimNo34r16c22v6R-1.7.jpg	 l	 5.427	 GoodTrial	 U	 l
82	 0	 x	 LineStimuli/stimNo131r0c0v6L-1.7.jpg	 r	 6.535	 GoodTrial	 U	 l
83	 0	 x	 LineStimuli/stimNo109r0c0v6L-1.7.jpg	 r	 6.228	 GoodTrial	 U	 l
84	 1	 left	 LineStimuli/stimNo75r11c3v6R-1.7.jpg	 r	 7.106	 GoodTrial	 U	 l
85	 1	 right	 LineStimuli/stimNo52r4c21v6L-1.7.jpg	 r	 9.373	 GoodTrial	 U	 l
86	 1	 left	 LineStimuli/stimNo72r12c6v6R-1.7.jpg	 r	 8.540	 GoodTrial	 U	 l
87	 1	 right	 LineStimuli/stimNo40r12c19v6R-1.7.jpg	 l	 1.748	 GoodTrial	 U	 l
88	 0	 x	 LineStimuli/stimNo159r0c0v6R-1.7.jpg	 r	 8.103	 GoodTrial	 U	 l
89	 0	 x	 LineStimuli/stimNo105r0c0v6L-1.7.jpg	 r	 8.071	 GoodTrial	 U	 l
90	 1	 left	 LineStimuli/stimNo17r11c1v6L-1.7.jpg	 l	 1.658	 GoodTrial	 U	 l
91	 0	 x	 LineStimuli/stimNo133r0c0v6R-1.7.jpg	 r	 8.144	 GoodTrial	 U	 l
92	 1	 left	 LineStimuli/stimNo59r9c8v6R-1.7.jpg	 l	 1.889	 GoodTrial	 U	 l
93	 1	 left	 LineStimuli/stimNo26r14c5v6R-1.7.jpg	 l	 1.810	 GoodTrial	 U	 l
94	 1	 left	 LineStimuli/stimNo5r10c7v6L-1.7.jpg	 l	 1.651	 GoodTrial	 U	 l
95	 0	 x	 LineStimuli/stimNo137r0c0v6L-1.7.jpg	 r	 6.143	 GoodTrial	 U	 l
96	 1	 left	 LineStimuli/stimNo2r12c8v6L-1.7.jpg	 l	 1.561	 GoodTrial	 U	 l
97	 0	 x	 LineStimuli/stimNo95r0c0v6L-1.7.jpg	 r	 8.265	 GoodTrial	 U	 l
98	 0	 x	 LineStimuli/stimNo86r0c0v6R-1.7.jpg	 r	 7.464	 GoodTrial	 U	 l
99	 0	 x	 LineStimuli/stimNo116r0c0v6R-1.7.jpg	 r	 3.248	 GoodTrial	 U	 l
100	 1	 left	 LineStimuli/stimNo44r15c4v6L-1.7.jpg	 l	 1.629	 GoodTrial	 U	 l
101	 1	 right	 LineStimuli/stimNo38r15c16v6L-1.7.jpg	 r	 4.287	 GoodTrial	 U	 l
102	 0	 x	 LineStimuli/stimNo128r0c0v6R-1.7.jpg	 r	 5.766	 GoodTrial	 U	 l
103	 0	 x	 LineStimuli/stimNo151r0c0v6R-1.7.jpg	 r	 4.277	 GoodTrial	 U	 l
104	 0	 x	 LineStimuli/stimNo113r0c0v6R-1.7.jpg	 r	 9.504	 GoodTrial	 U	 l
105	 0	 x	 LineStimuli/stimNo92r0c0v6R-1.7.jpg	 r	 9.742	 GoodTrial	 U	 l
106	 1	 right	 LineStimuli/stimNo43r11c16v6R-1.7.jpg	 l	 1.761	 GoodTrial	 U	 l
107	 0	 x	 LineStimuli/stimNo108r0c0v6L-1.7.jpg	 r	 5.296	 GoodTrial	 U	 l
108	 0	 x	 LineStimuli/stimNo134r0c0v6L-1.7.jpg	 r	 5.736	 GoodTrial	 U	 l
109	 1	 left	 LineStimuli/stimNo16r16c7v6R-1.7.jpg	 l	 5.125	 GoodTrial	 U	 l
110	 0	 x	 LineStimuli/stimNo102r0c0v6L-1.7.jpg	 r	 5.187	 GoodTrial	 U	 l
111	 0	 x	 LineStimuli/stimNo149r0c0v6R-1.7.jpg	 r	 5.712	 GoodTrial	 U	 l
112	 1	 left	 LineStimuli/stimNo25r4c2v6L-1.7.jpg	 l	 1.678	 GoodTrial	 U	 l
113	 1	 right	 LineStimuli/stimNo80r10c20v6R-1.7.jpg	 l	 1.809	 GoodTrial	 U	 l
114	 0	 x	 LineStimuli/stimNo118r0c0v6L-1.7.jpg	 r	 5.873	 GoodTrial	 U	 l
115	 0	 x	 LineStimuli/stimNo85r0c0v6R-1.7.jpg	 r	 4.686	 GoodTrial	 U	 l
116	 1	 right	 LineStimuli/stimNo57r9c13v6R-1.7.jpg	 l	 2.220	 GoodTrial	 U	 l
117	 1	 left	 LineStimuli/stimNo73r2c2v6R-1.7.jpg	 r	 4.926	 GoodTrial	 U	 l
118	 1	 right	 LineStimuli/stimNo66r14c16v6L-1.7.jpg	 r	 4.254	 GoodTrial	 U	 l
119	 0	 x	 LineStimuli/stimNo119r0c0v6R-1.7.jpg	 r	 5.116	 GoodTrial	 U	 l
120	 0	 x	 LineStimuli/stimNo144r0c0v6R-1.7.jpg	 r	 5.939	 GoodTrial	 U	 l
121	 1	 right	 LineStimuli/stimNo31r9c15v6L-1.7.jpg	 r	 6.406	 GoodTrial	 U	 l
122	 0	 x	 LineStimuli/stimNo157r0c0v6L-1.7.jpg	 r	 7.374	 GoodTrial	 U	 l
123	 1	 left	 LineStimuli/stimNo23r14c8v6L-1.7.jpg	 l	 1.610	 GoodTrial	 U	 l
124	 0	 x	 LineStimuli/stimNo99r0c0v6R-1.7.jpg	 r	 5.117	 GoodTrial	 U	 l
125	 0	 x	 LineStimuli/stimNo155r0c0v6L-1.7.jpg	 r	 6.006	 GoodTrial	 U	 l
126	 0	 x	 LineStimuli/stimNo91r0c0v6R-1.7.jpg	 r	 4.148	 GoodTrial	 U	 l
127	 0	 x	 LineStimuli/stimNo126r0c0v6R-1.7.jpg	 r	 8.103	 GoodTrial	 U	 l
128	 0	 x	 LineStimuli/stimNo124r0c0v6L-1.7.jpg	 r	 5.846	 GoodTrial	 U	 l
129	 1	 left	 LineStimuli/stimNo41r14c3v6R-1.7.jpg	 r	 4.757	 GoodTrial	 U	 l
130	 0	 x	 LineStimuli/stimNo97r0c0v6L-1.7.jpg	 r	 7.044	 GoodTrial	 U	 l
131	 1	 left	 LineStimuli/stimNo71r9c7v6R-1.7.jpg	 l	 2.208	 GoodTrial	 U	 l
132	 0	 x	 LineStimuli/stimNo101r0c0v6L-1.7.jpg	 r	 5.766	 GoodTrial	 U	 l
133	 1	 right	 LineStimuli/stimNo4r9c19v6R-1.7.jpg	 l	 1.660	 GoodTrial	 U	 l
134	 0	 x	 LineStimuli/stimNo81r0c0v6R-1.7.jpg	 r	 4.887	 GoodTrial	 U	 l
135	 0	 x	 LineStimuli/stimNo135r0c0v6L-1.7.jpg	 r	 4.766	 GoodTrial	 U	 l
136	 1	 right	 LineStimuli/stimNo15r6c15v6L-1.7.jpg	 l	 2.798	 GoodTrial	 U	 l
137	 0	 x	 LineStimuli/stimNo110r0c0v6L-1.7.jpg	 r	 4.243	 GoodTrial	 U	 l
138	 1	 right	 LineStimuli/stimNo70r6c16v6R-1.7.jpg	 l	 1.813	 GoodTrial	 U	 l
139	 0	 x	 LineStimuli/stimNo160r0c0v6L-1.7.jpg	 r	 6.689	 GoodTrial	 U	 l
140	 0	 x	 LineStimuli/stimNo146r0c0v6R-1.7.jpg	 r	 2.498	 GoodTrial	 U	 l
141	 1	 left	 LineStimuli/stimNo79r12c5v6L-1.7.jpg	 l	 1.670	 GoodTrial	 U	 l
142	 1	 right	 LineStimuli/stimNo78r14c22v6L-1.7.jpg	 r	 4.381	 GoodTrial	 U	 l
143	 1	 right	 LineStimuli/stimNo58r11c14v6R-1.7.jpg	 l	 1.652	 GoodTrial	 U	 l
144	 1	 left	 LineStimuli/stimNo29r6c7v6R-1.7.jpg	 l	 2.029	 GoodTrial	 U	 l
145	 1	 right	 LineStimuli/stimNo55r15c22v6R-1.7.jpg	 l	 1.799	 GoodTrial	 U	 l
146	 0	 x	 LineStimuli/stimNo103r0c0v6L-1.7.jpg	 r	 6.075	 GoodTrial	 U	 l
147	 0	 x	 LineStimuli/stimNo83r0c0v6L-1.7.jpg	 r	 4.637	 GoodTrial	 U	 l
148	 0	 x	 LineStimuli/stimNo120r0c0v6R-1.7.jpg	 r	 4.916	 GoodTrial	 U	 l
149	 0	 x	 LineStimuli/stimNo142r0c0v6L-1.7.jpg	 r	 4.726	 GoodTrial	 U	 l
150	 1	 left	 LineStimuli/stimNo6r2c8v6R-1.7.jpg	 r	 4.037	 GoodTrial	 U	 l
151	 0	 x	 LineStimuli/stimNo136r0c0v6R-1.7.jpg	 r	 4.142	 GoodTrial	 U	 l
152	 0	 x	 LineStimuli/stimNo98r0c0v6R-1.7.jpg	 r	 5.136	 GoodTrial	 U	 l
153	 1	 right	 LineStimuli/stimNo18r4c14v6R-1.7.jpg	 l	 1.799	 GoodTrial	 U	 l
154	 0	 x	 LineStimuli/stimNo129r0c0v6R-1.7.jpg	 r	 4.977	 GoodTrial	 U	 l
155	 0	 x	 LineStimuli/stimNo111r0c0v6R-1.7.jpg	 r	 4.167	 GoodTrial	 U	 l
156	 1	 right	 LineStimuli/stimNo24r14c17v6L-1.7.jpg	 r	 4.437	 GoodTrial	 U	 l
157	 1	 right	 LineStimuli/stimNo47r15c15v6R-1.7.jpg	 l	 1.679	 GoodTrial	 U	 l
158	 1	 left	 LineStimuli/stimNo62r16c9v6L-1.7.jpg	 l	 1.584	 GoodTrial	 U	 l
159	 1	 right	 LineStimuli/stimNo69r3c21v6R-1.7.jpg	 l	 1.630	 GoodTrial	 U	 l
160	 0	 x	 LineStimuli/stimNo117r0c0v6L-1.7.jpg	 r	 4.377	 GoodTrial	 U	 l
