Trial	Target_pr	Target_side	Name	Key	RT	Message	Trial_Type	Hemianopia
1	 0	 x	 LineStimuli/stimNo89r0c0v6L-1.7.jpg	 r	 30.742	 GoodTrial	 U	 l
2	 1	 right	 LineStimuli/stimNo51r8c16v6R-1.7.jpg	 l	 3.741	 GoodTrial	 U	 l
3	 0	 x	 LineStimuli/stimNo94r0c0v6R-1.7.jpg	 r	 12.970	 GoodTrial	 U	 l
4	 0	 x	 LineStimuli/stimNo136r0c0v6R-1.7.jpg	 r	 15.581	 GoodTrial	 U	 l
5	 0	 x	 LineStimuli/stimNo122r0c0v6L-1.7.jpg	 r	 13.906	 GoodTrial	 U	 l
6	 1	 right	 LineStimuli/stimNo38r15c16v6L-1.7.jpg	 r	 9.989	 GoodTrial	 U	 l
7	 0	 x	 LineStimuli/stimNo96r0c0v6L-1.7.jpg	 r	 18.439	 GoodTrial	 U	 l
8	 1	 right	 LineStimuli/stimNo58r11c14v6R-1.7.jpg	 l	 2.262	 GoodTrial	 U	 l
9	 0	 x	 LineStimuli/stimNo99r0c0v6R-1.7.jpg	 r	 21.386	 GoodTrial	 U	 l
10	 1	 right	 LineStimuli/stimNo33r3c15v6R-1.7.jpg	 l	 2.273	 GoodTrial	 U	 l
11	 0	 x	 LineStimuli/stimNo152r0c0v6R-1.7.jpg	 r	 18.045	 GoodTrial	 U	 l
12	 0	 x	 LineStimuli/stimNo114r0c0v6L-1.7.jpg	 r	 18.674	 GoodTrial	 U	 l
13	 0	 x	 LineStimuli/stimNo145r0c0v6R-1.7.jpg	 r	 22.409	 GoodTrial	 U	 l
14	 1	 left	 LineStimuli/stimNo16r16c7v6R-1.7.jpg	 l	 7.036	 GoodTrial	 U	 l
15	 0	 x	 LineStimuli/stimNo101r0c0v6L-1.7.jpg	 r	 24.257	 GoodTrial	 U	 l
16	 0	 x	 LineStimuli/stimNo85r0c0v6R-1.7.jpg	 r	 25.996	 GoodTrial	 U	 l
17	 1	 left	 LineStimuli/stimNo46r11c4v6L-1.7.jpg	 l	 2.443	 GoodTrial	 U	 l
18	 1	 right	 LineStimuli/stimNo9r6c18v6L-1.7.jpg	 l	 3.178	 GoodTrial	 U	 l
19	 1	 left	 LineStimuli/stimNo72r12c6v6R-1.7.jpg	 l	 23.168	 GoodTrial	 U	 l
20	 1	 left	 LineStimuli/stimNo29r6c7v6R-1.7.jpg	 l	 10.751	 GoodTrial	 U	 l
21	 1	 right	 LineStimuli/stimNo53r6c14v6L-1.7.jpg	 l	 3.306	 GoodTrial	 U	 l
22	 0	 x	 LineStimuli/stimNo127r0c0v6R-1.7.jpg	 r	 21.121	 GoodTrial	 U	 l
23	 0	 x	 LineStimuli/stimNo154r0c0v6R-1.7.jpg	 r	 28.708	 GoodTrial	 U	 l
24	 0	 x	 LineStimuli/stimNo128r0c0v6R-1.7.jpg	 r	 22.256	 GoodTrial	 U	 l
25	 1	 left	 LineStimuli/stimNo7r6c3v6R-1.7.jpg	 l	 13.506	 GoodTrial	 U	 l
26	 1	 left	 LineStimuli/stimNo23r14c8v6L-1.7.jpg	 l	 2.225	 GoodTrial	 U	 l
27	 1	 right	 LineStimuli/stimNo77r8c13v6L-1.7.jpg	 l	 2.478	 GoodTrial	 U	 l
28	 0	 x	 LineStimuli/stimNo139r0c0v6L-1.7.jpg	 r	 30.695	 GoodTrial	 U	 l
29	 1	 right	 LineStimuli/stimNo47r15c15v6R-1.7.jpg	 l	 2.306	 GoodTrial	 U	 l
30	 0	 x	 LineStimuli/stimNo103r0c0v6L-1.7.jpg	 r	 29.513	 GoodTrial	 U	 l
31	 1	 left	 LineStimuli/stimNo60r15c9v6R-1.7.jpg	 r	 30.724	 GoodTrial	 U	 l
32	 0	 x	 LineStimuli/stimNo133r0c0v6R-1.7.jpg	 r	 27.589	 GoodTrial	 U	 l
33	 1	 left	 LineStimuli/stimNo25r4c2v6L-1.7.jpg	 l	 2.055	 GoodTrial	 U	 l
34	 0	 x	 LineStimuli/stimNo129r0c0v6R-1.7.jpg	 r	 28.696	 GoodTrial	 U	 l
35	 0	 x	 LineStimuli/stimNo119r0c0v6R-1.7.jpg	 r	 31.882	 GoodTrial	 U	 l
36	 1	 right	 LineStimuli/stimNo55r15c22v6R-1.7.jpg	 l	 3.136	 GoodTrial	 U	 l
37	 1	 left	 LineStimuli/stimNo22r16c6v6R-1.7.jpg	 l	 5.572	 GoodTrial	 U	 l
38	 0	 x	 LineStimuli/stimNo153r0c0v6L-1.7.jpg	 r	 31.435	 GoodTrial	 U	 l
39	 0	 x	 LineStimuli/stimNo131r0c0v6L-1.7.jpg	 r	 34.664	 GoodTrial	 U	 l
40	 1	 left	 LineStimuli/stimNo1r5c4v6R-1.7.jpg	 l	 14.565	 GoodTrial	 U	 l
41	 0	 x	 LineStimuli/stimNo138r0c0v6L-1.7.jpg	 r	 28.348	 GoodTrial	 U	 l
42	 0	 x	 LineStimuli/stimNo111r0c0v6R-1.7.jpg	 r	 38.605	 GoodTrial	 U	 l
43	 0	 x	 LineStimuli/stimNo91r0c0v6R-1.7.jpg	 r	 35.629	 GoodTrial	 U	 l
44	 0	 x	 LineStimuli/stimNo123r0c0v6L-1.7.jpg	 r	 40.280	 GoodTrial	 U	 l
45	 1	 left	 LineStimuli/stimNo36r1c4v6L-1.7.jpg	 l	 1.919	 GoodTrial	 U	 l
46	 0	 x	 LineStimuli/stimNo125r0c0v6L-1.7.jpg	 r	 30.314	 GoodTrial	 U	 l
47	 1	 right	 LineStimuli/stimNo69r3c21v6R-1.7.jpg	 l	 1.955	 GoodTrial	 U	 l
48	 1	 right	 LineStimuli/stimNo74r13c16v6R-1.7.jpg	 l	 2.072	 GoodTrial	 U	 l
49	 0	 x	 LineStimuli/stimNo117r0c0v6L-1.7.jpg	 r	 35.654	 GoodTrial	 U	 l
50	 0	 x	 LineStimuli/stimNo108r0c0v6L-1.7.jpg	 r	 31.300	 GoodTrial	 U	 l
51	 0	 x	 LineStimuli/stimNo142r0c0v6L-1.7.jpg	 r	 32.930	 GoodTrial	 U	 l
52	 1	 right	 LineStimuli/stimNo56r1c15v6L-1.7.jpg	 l	 9.652	 GoodTrial	 U	 l
53	 1	 left	 LineStimuli/stimNo41r14c3v6R-1.7.jpg	 r	 46.263	 GoodTrial	 U	 l
54	 1	 right	 LineStimuli/stimNo43r11c16v6R-1.7.jpg	 l	 1.885	 GoodTrial	 U	 l
55	 0	 x	 LineStimuli/stimNo121r0c0v6R-1.7.jpg	 r	 34.935	 GoodTrial	 U	 l
56	 0	 x	 LineStimuli/stimNo88r0c0v6R-1.7.jpg	 r	 33.317	 GoodTrial	 U	 l
57	 1	 left	 LineStimuli/stimNo73r2c2v6R-1.7.jpg	 r	 29.735	 GoodTrial	 U	 l
58	 0	 x	 LineStimuli/stimNo102r0c0v6L-1.7.jpg	 r	 34.587	 GoodTrial	 U	 l
59	 1	 right	 LineStimuli/stimNo80r10c20v6R-1.7.jpg	 l	 2.001	 GoodTrial	 U	 l
60	 1	 left	 LineStimuli/stimNo32r7c5v6L-1.7.jpg	 l	 2.607	 GoodTrial	 U	 l
61	 0	 x	 LineStimuli/stimNo141r0c0v6L-1.7.jpg	 r	 32.320	 GoodTrial	 U	 l
62	 1	 right	 LineStimuli/stimNo42r11c21v6L-1.7.jpg	 l	 19.897	 GoodTrial	 U	 l
63	 1	 left	 LineStimuli/stimNo17r11c1v6L-1.7.jpg	 l	 1.930	 GoodTrial	 U	 l
64	 1	 left	 LineStimuli/stimNo12r4c9v6L-1.7.jpg	 l	 1.983	 GoodTrial	 U	 l
65	 0	 x	 LineStimuli/stimNo84r0c0v6L-1.7.jpg	 r	 35.712	 GoodTrial	 U	 l
66	 0	 x	 LineStimuli/stimNo90r0c0v6R-1.7.jpg	 r	 29.083	 GoodTrial	 U	 l
67	 1	 left	 LineStimuli/stimNo59r9c8v6R-1.7.jpg	 l	 23.373	 GoodTrial	 U	 l
68	 1	 right	 LineStimuli/stimNo31r9c15v6L-1.7.jpg	 l	 26.788	 GoodTrial	 U	 l
69	 1	 right	 LineStimuli/stimNo13r6c19v6R-1.7.jpg	 l	 1.896	 GoodTrial	 U	 l
70	 1	 right	 LineStimuli/stimNo34r16c22v6R-1.7.jpg	 l	 2.690	 GoodTrial	 U	 l
71	 1	 left	 LineStimuli/stimNo68r2c6v6R-1.7.jpg	 l	 6.930	 GoodTrial	 U	 l
72	 0	 x	 LineStimuli/stimNo148r0c0v6L-1.7.jpg	 r	 32.659	 GoodTrial	 U	 l
73	 1	 left	 LineStimuli/stimNo2r12c8v6L-1.7.jpg	 l	 1.901	 GoodTrial	 U	 l
74	 1	 left	 LineStimuli/stimNo11r16c8v6L-1.7.jpg	 l	 1.785	 GoodTrial	 U	 l
75	 1	 right	 LineStimuli/stimNo48r15c22v6L-1.7.jpg	 l	 38.475	 GoodTrial	 U	 l
76	 1	 right	 LineStimuli/stimNo18r4c14v6R-1.7.jpg	 l	 1.888	 GoodTrial	 U	 l
77	 1	 right	 LineStimuli/stimNo24r14c17v6L-1.7.jpg	 l	 29.536	 GoodTrial	 U	 l
78	 0	 x	 LineStimuli/stimNo93r0c0v6R-1.7.jpg	 r	 25.990	 GoodTrial	 U	 l
79	 1	 right	 LineStimuli/stimNo19r1c17v6L-1.7.jpg	 l	 5.496	 GoodTrial	 U	 l
80	 1	 right	 LineStimuli/stimNo10r14c18v6L-1.7.jpg	 l	 24.432	 GoodTrial	 U	 l
81	 0	 x	 LineStimuli/stimNo143r0c0v6L-1.7.jpg	 r	 42.827	 GoodTrial	 U	 l
82	 1	 right	 LineStimuli/stimNo76r1c16v6L-1.7.jpg	 l	 7.483	 GoodTrial	 U	 l
83	 1	 right	 LineStimuli/stimNo28r12c18v6L-1.7.jpg	 l	 33.321	 GoodTrial	 U	 l
84	 1	 left	 LineStimuli/stimNo75r11c3v6R-1.7.jpg	 l	 31.870	 GoodTrial	 U	 l
85	 1	 left	 LineStimuli/stimNo21r4c2v6R-1.7.jpg	 l	 15.440	 GoodTrial	 U	 l
86	 0	 x	 LineStimuli/stimNo95r0c0v6L-1.7.jpg	 r	 39.180	 GoodTrial	 U	 l
87	 1	 left	 LineStimuli/stimNo62r16c9v6L-1.7.jpg	 l	 2.031	 GoodTrial	 U	 l
88	 0	 x	 LineStimuli/stimNo105r0c0v6L-1.7.jpg	 r	 36.641	 GoodTrial	 U	 l
89	 0	 x	 LineStimuli/stimNo98r0c0v6R-1.7.jpg	 r	 36.406	 GoodTrial	 U	 l
90	 0	 x	 LineStimuli/stimNo109r0c0v6L-1.7.jpg	 x	 0.000	 GoodTrial	 U	 l
91	 1	 right	 LineStimuli/stimNo54r12c21v6L-1.7.jpg	 l	 22.901	 GoodTrial	 U	 l
92	 0	 x	 LineStimuli/stimNo86r0c0v6R-1.7.jpg	 r	 34.181	 GoodTrial	 U	 l
93	 1	 left	 LineStimuli/stimNo65r16c7v6L-1.7.jpg	 l	 1.884	 GoodTrial	 U	 l
94	 0	 x	 LineStimuli/stimNo116r0c0v6R-1.7.jpg	 r	 34.270	 GoodTrial	 U	 l
95	 1	 right	 LineStimuli/stimNo52r4c21v6L-1.7.jpg	 l	 12.391	 GoodTrial	 U	 l
96	 1	 right	 LineStimuli/stimNo30r6c18v6R-1.7.jpg	 l	 1.891	 GoodTrial	 U	 l
97	 0	 x	 LineStimuli/stimNo134r0c0v6L-1.7.jpg	 r	 37.800	 GoodTrial	 U	 l
98	 0	 x	 LineStimuli/stimNo149r0c0v6R-1.7.jpg	 r	 29.459	 GoodTrial	 U	 l
99	 0	 x	 LineStimuli/stimNo100r0c0v6R-1.7.jpg	 r	 33.718	 GoodTrial	 U	 l
100	 0	 x	 LineStimuli/stimNo147r0c0v6R-1.7.jpg	 r	 42.568	 GoodTrial	 U	 l
101	 0	 x	 LineStimuli/stimNo118r0c0v6L-1.7.jpg	 r	 40.439	 GoodTrial	 U	 l
102	 0	 x	 LineStimuli/stimNo97r0c0v6L-1.7.jpg	 r	 43.874	 GoodTrial	 U	 l
103	 1	 left	 LineStimuli/stimNo39r10c3v6L-1.7.jpg	 l	 1.919	 GoodTrial	 U	 l
104	 1	 right	 LineStimuli/stimNo70r6c16v6R-1.7.jpg	 l	 1.914	 GoodTrial	 U	 l
105	 0	 x	 LineStimuli/stimNo157r0c0v6L-1.7.jpg	 r	 35.593	 GoodTrial	 U	 l
106	 1	 left	 LineStimuli/stimNo79r12c5v6L-1.7.jpg	 l	 1.687	 GoodTrial	 U	 l
107	 0	 x	 LineStimuli/stimNo82r0c0v6L-1.7.jpg	 r	 38.008	 GoodTrial	 U	 l
108	 0	 x	 LineStimuli/stimNo140r0c0v6R-1.7.jpg	 r	 35.194	 GoodTrial	 U	 l
109	 1	 right	 LineStimuli/stimNo14r10c17v6R-1.7.jpg	 l	 1.966	 GoodTrial	 U	 l
110	 0	 x	 LineStimuli/stimNo159r0c0v6R-1.7.jpg	 r	 30.660	 GoodTrial	 U	 l
111	 1	 left	 LineStimuli/stimNo3r8c6v6R-1.7.jpg	 l	 10.716	 GoodTrial	 U	 l
112	 1	 left	 LineStimuli/stimNo67r4c8v6R-1.7.jpg	 l	 2.255	 GoodTrial	 U	 l
113	 1	 right	 LineStimuli/stimNo4r9c19v6R-1.7.jpg	 l	 1.918	 GoodTrial	 U	 l
114	 1	 left	 LineStimuli/stimNo64r3c3v6R-1.7.jpg	 l	 6.407	 GoodTrial	 U	 l
115	 0	 x	 LineStimuli/stimNo92r0c0v6R-1.7.jpg	 r	 33.805	 GoodTrial	 U	 l
116	 1	 right	 LineStimuli/stimNo57r9c13v6R-1.7.jpg	 l	 1.778	 GoodTrial	 U	 l
117	 1	 left	 LineStimuli/stimNo20r14c8v6L-1.7.jpg	 l	 1.814	 GoodTrial	 U	 l
118	 1	 left	 LineStimuli/stimNo45r16c5v6L-1.7.jpg	 l	 1.802	 GoodTrial	 U	 l
119	 1	 right	 LineStimuli/stimNo50r7c16v6L-1.7.jpg	 l	 16.528	 GoodTrial	 U	 l
120	 0	 x	 LineStimuli/stimNo156r0c0v6R-1.7.jpg	 r	 33.052	 GoodTrial	 U	 l
121	 0	 x	 LineStimuli/stimNo130r0c0v6L-1.7.jpg	 r	 37.410	 GoodTrial	 U	 l
122	 1	 left	 LineStimuli/stimNo71r9c7v6R-1.7.jpg	 l	 23.344	 GoodTrial	 U	 l
123	 0	 x	 LineStimuli/stimNo120r0c0v6R-1.7.jpg	 r	 29.160	 GoodTrial	 U	 l
124	 0	 x	 LineStimuli/stimNo144r0c0v6R-1.7.jpg	 r	 27.002	 GoodTrial	 U	 l
125	 1	 right	 LineStimuli/stimNo66r14c16v6L-1.7.jpg	 l	 3.090	 GoodTrial	 U	 l
126	 1	 right	 LineStimuli/stimNo78r14c22v6L-1.7.jpg	 l	 3.777	 GoodTrial	 U	 l
127	 1	 left	 LineStimuli/stimNo26r14c5v6R-1.7.jpg	 l	 2.831	 GoodTrial	 U	 l
128	 0	 x	 LineStimuli/stimNo113r0c0v6R-1.7.jpg	 l	 43.103	 GoodTrial	 U	 l
129	 0	 x	 LineStimuli/stimNo146r0c0v6R-1.7.jpg	 r	 8.953	 GoodTrial	 U	 l
130	 0	 x	 LineStimuli/stimNo135r0c0v6L-1.7.jpg	 r	 30.336	 GoodTrial	 U	 l
131	 0	 x	 LineStimuli/stimNo126r0c0v6R-1.7.jpg	 r	 28.560	 GoodTrial	 U	 l
132	 0	 x	 LineStimuli/stimNo124r0c0v6L-1.7.jpg	 r	 30.610	 GoodTrial	 U	 l
133	 0	 x	 LineStimuli/stimNo104r0c0v6R-1.7.jpg	 r	 37.270	 GoodTrial	 U	 l
134	 0	 x	 LineStimuli/stimNo151r0c0v6R-1.7.jpg	 r	 28.178	 GoodTrial	 U	 l
135	 0	 x	 LineStimuli/stimNo160r0c0v6L-1.7.jpg	 r	 25.102	 GoodTrial	 U	 l
136	 1	 left	 LineStimuli/stimNo5r10c7v6L-1.7.jpg	 l	 1.831	 GoodTrial	 U	 l
137	 0	 x	 LineStimuli/stimNo110r0c0v6L-1.7.jpg	 r	 27.982	 GoodTrial	 U	 l
138	 0	 x	 LineStimuli/stimNo115r0c0v6R-1.7.jpg	 r	 29.153	 GoodTrial	 U	 l
139	 0	 x	 LineStimuli/stimNo83r0c0v6L-1.7.jpg	 r	 29.512	 GoodTrial	 U	 l
140	 1	 left	 LineStimuli/stimNo49r12c5v6R-1.7.jpg	 l	 30.588	 GoodTrial	 U	 l
141	 1	 left	 LineStimuli/stimNo61r10c4v6L-1.7.jpg	 l	 1.720	 GoodTrial	 U	 l
142	 0	 x	 LineStimuli/stimNo87r0c0v6R-1.7.jpg	 r	 37.435	 GoodTrial	 U	 l
143	 1	 left	 LineStimuli/stimNo6r2c8v6R-1.7.jpg	 l	 12.546	 GoodTrial	 U	 l
144	 0	 x	 LineStimuli/stimNo137r0c0v6L-1.7.jpg	 r	 29.961	 GoodTrial	 U	 l
145	 1	 right	 LineStimuli/stimNo63r3c20v6R-1.7.jpg	 l	 1.855	 GoodTrial	 U	 l
146	 1	 right	 LineStimuli/stimNo8r2c20v6L-1.7.jpg	 l	 5.088	 GoodTrial	 U	 l
147	 1	 right	 LineStimuli/stimNo35r6c13v6L-1.7.jpg	 l	 15.105	 GoodTrial	 U	 l
148	 0	 x	 LineStimuli/stimNo81r0c0v6R-1.7.jpg	 r	 25.436	 GoodTrial	 U	 l
149	 0	 x	 LineStimuli/stimNo112r0c0v6R-1.7.jpg	 r	 34.705	 GoodTrial	 U	 l
150	 1	 left	 LineStimuli/stimNo37r4c6v6L-1.7.jpg	 l	 1.746	 GoodTrial	 U	 l
151	 0	 x	 LineStimuli/stimNo107r0c0v6R-1.7.jpg	 r	 27.178	 GoodTrial	 U	 l
152	 0	 x	 LineStimuli/stimNo106r0c0v6L-1.7.jpg	 r	 28.495	 GoodTrial	 U	 l
153	 1	 right	 LineStimuli/stimNo40r12c19v6R-1.7.jpg	 l	 1.948	 GoodTrial	 U	 l
154	 1	 left	 LineStimuli/stimNo44r15c4v6L-1.7.jpg	 l	 1.678	 GoodTrial	 U	 l
155	 0	 x	 LineStimuli/stimNo158r0c0v6R-1.7.jpg	 r	 21.649	 GoodTrial	 U	 l
156	 1	 left	 LineStimuli/stimNo27r8c4v6L-1.7.jpg	 l	 1.737	 GoodTrial	 U	 l
157	 1	 right	 LineStimuli/stimNo15r6c15v6L-1.7.jpg	 l	 17.237	 GoodTrial	 U	 l
158	 0	 x	 LineStimuli/stimNo155r0c0v6L-1.7.jpg	 r	 36.076	 GoodTrial	 U	 l
159	 0	 x	 LineStimuli/stimNo132r0c0v6R-1.7.jpg	 r	 24.773	 GoodTrial	 U	 l
160	 0	 x	 LineStimuli/stimNo150r0c0v6R-1.7.jpg	 r	 29.142	 GoodTrial	 U	 l
